{
    "parameter": [
        {
            "name": "implication",
            "resource": {
                "category": [
                    {
                        "coding": [
                            {
                                "code": "laboratory",
                                "system": "http://terminology.hl7.org/CodeSystem/observation-category"
                            }
                        ]
                    }
                ],
                "code": {
                    "coding": [
                        {
                            "code": "therapeutic-implication",
                            "system": "http://hl7.org/fhir/uv/genomics-reporting/CodeSystem/tbd-codes-cs"
                        }
                    ]
                },
                "component": [
                    {
                        "code": {
                            "coding": [
                                {
                                    "code": "51963-7",
                                    "display": "medication-assessed",
                                    "system": "http://loinc.org"
                                }
                            ]
                        },
                        "valueCodeableConcept": {
                            "coding": [
                                {
                                    "code": "NCT05023655",
                                    "display": "NCT05023655",
                                    "system": "https://clinicaltrials.gov/"
                                }
                            ]
                        }
                    },
                    {
                        "code": {
                            "coding": [
                                {
                                    "code": "81259-4",
                                    "display": "phenotypic treatment context",
                                    "system": "http://loinc.org"
                                }
                            ]
                        },
                        "valueCodeableConcept": {
                            "coding": [
                                {
                                    "code": "684",
                                    "display": "Hepatocellular carcinoma",
                                    "system": "https://disease-ontology.org"
                                }
                            ]
                        }
                    },
                    {
                        "code": {
                            "coding": [
                                {
                                    "code": "predicted-therapeutic-implication",
                                    "display": "predicted-therapeutic-implication",
                                    "system": "http://hl7.org/fhir/uv/genomics-reporting/CodeSystem/tbd-codes-cs"
                                }
                            ]
                        },
                        "valueCodeableConcept": {
                            "text": "Patient eligible for clinical trial"
                        }
                    }
                ],
                "derivedFrom": [
                    {
                        "reference": "Observation/dv-b2687130589f4abb85d77e215ebaa551"
                    }
                ],
                "id": "dv-6508e7e22171de9b6d744453",
                "identifier": [
                    {
                        "system": "https://clinicaltrials.gov/",
                        "value": "NCT05023655"
                    }
                ],
                "meta": {
                    "profile": [
                        "http://hl7.org/fhir/uv/genomics-reporting/StructureDefinition/therapeutic-implication"
                    ]
                },
                "resourceType": "Observation",
                "status": "final",
                "subject": {
                    "reference": "Patient/TCGA-DD-A1EH"
                }
            }
        },
        {
            "name": "implication",
            "resource": {
                "category": [
                    {
                        "coding": [
                            {
                                "code": "laboratory",
                                "system": "http://terminology.hl7.org/CodeSystem/observation-category"
                            }
                        ]
                    }
                ],
                "code": {
                    "coding": [
                        {
                            "code": "therapeutic-implication",
                            "system": "http://hl7.org/fhir/uv/genomics-reporting/CodeSystem/tbd-codes-cs"
                        }
                    ]
                },
                "component": [
                    {
                        "code": {
                            "coding": [
                                {
                                    "code": "51963-7",
                                    "display": "medication-assessed",
                                    "system": "http://loinc.org"
                                }
                            ]
                        },
                        "valueCodeableConcept": {
                            "coding": [
                                {
                                    "code": "NCT05023655",
                                    "display": "NCT05023655",
                                    "system": "https://clinicaltrials.gov/"
                                }
                            ]
                        }
                    },
                    {
                        "code": {
                            "coding": [
                                {
                                    "code": "81259-4",
                                    "display": "phenotypic treatment context",
                                    "system": "http://loinc.org"
                                }
                            ]
                        },
                        "valueCodeableConcept": {
                            "coding": [
                                {
                                    "code": "684",
                                    "display": "Hepatocellular carcinoma",
                                    "system": "https://disease-ontology.org"
                                }
                            ]
                        }
                    },
                    {
                        "code": {
                            "coding": [
                                {
                                    "code": "predicted-therapeutic-implication",
                                    "display": "predicted-therapeutic-implication",
                                    "system": "http://hl7.org/fhir/uv/genomics-reporting/CodeSystem/tbd-codes-cs"
                                }
                            ]
                        },
                        "valueCodeableConcept": {
                            "text": "Patient eligible for clinical trial"
                        }
                    }
                ],
                "derivedFrom": [
                    {
                        "reference": "Observation/dv-cf0f01397a134be8a7d1551655b7c3c6"
                    }
                ],
                "id": "dv-6508ea502171de9b6d744454",
                "identifier": [
                    {
                        "system": "https://clinicaltrials.gov/",
                        "value": "NCT05023655"
                    }
                ],
                "meta": {
                    "profile": [
                        "http://hl7.org/fhir/uv/genomics-reporting/StructureDefinition/therapeutic-implication"
                    ]
                },
                "resourceType": "Observation",
                "status": "final",
                "subject": {
                    "reference": "Patient/TCGA-DD-A1EH"
                }
            }
        },
        {
            "name": "variant",
            "resource": {
                "category": [
                    {
                        "coding": [
                            {
                                "code": "laboratory",
                                "system": "http://terminology.hl7.org/CodeSystem/observation-category"
                            }
                        ]
                    }
                ],
                "code": {
                    "coding": [
                        {
                            "code": "69548-6",
                            "display": "Genetic variant assessment",
                            "system": "http://loinc.org"
                        }
                    ]
                },
                "component": [
                    {
                        "code": {
                            "coding": [
                                {
                                    "code": "48002-0",
                                    "display": "Genomic Source Class",
                                    "system": "http://loinc.org"
                                }
                            ]
                        },
                        "valueCodeableConcept": {
                            "coding": [
                                {
                                    "code": "LA6684-0",
                                    "display": "somatic",
                                    "system": "http://loinc.org"
                                }
                            ]
                        }
                    },
                    {
                        "code": {
                            "coding": [
                                {
                                    "code": "48013-7",
                                    "display": "Genomic reference sequence ID",
                                    "system": "http://loinc.org"
                                }
                            ]
                        },
                        "valueCodeableConcept": {
                            "coding": [
                                {
                                    "code": "NC_000001.10",
                                    "system": "http://www.ncbi.nlm.nih.gov/nuccore"
                                }
                            ]
                        }
                    },
                    {
                        "code": {
                            "coding": [
                                {
                                    "code": "69547-8",
                                    "display": "Genomic Ref allele [ID]",
                                    "system": "http://loinc.org"
                                }
                            ]
                        },
                        "valueString": "C"
                    },
                    {
                        "code": {
                            "coding": [
                                {
                                    "code": "69551-0",
                                    "display": "Genomic Alt allele [ID]",
                                    "system": "http://loinc.org"
                                }
                            ]
                        },
                        "valueString": "T"
                    },
                    {
                        "code": {
                            "coding": [
                                {
                                    "code": "81252-9",
                                    "display": "Discrete genetic variant",
                                    "system": "http://loinc.org"
                                }
                            ]
                        },
                        "valueCodeableConcept": {
                            "coding": [
                                {
                                    "code": "NC_000001.10:27105549:C:T",
                                    "display": "NC_000001.10:27105549:C:T",
                                    "system": "https://api.ncbi.nlm.nih.gov/variation/v0/"
                                }
                            ]
                        }
                    },
                    {
                        "code": {
                            "coding": [
                                {
                                    "code": "81254-5",
                                    "display": "Variant exact start-end",
                                    "system": "http://loinc.org"
                                }
                            ]
                        },
                        "valueRange": {
                            "low": {
                                "value": 27105549
                            }
                        }
                    },
                    {
                        "code": {
                            "coding": [
                                {
                                    "code": "81258-6",
                                    "display": "Sample VAF",
                                    "system": "http://loinc.org"
                                }
                            ]
                        },
                        "valueQuantity": {
                            "code": "1",
                            "system": "http://unitsofmeasure.org",
                            "unit": "relative frequency of a particular allele in the specimen",
                            "value": 0
                        }
                    },
                    {
                        "code": {
                            "coding": [
                                {
                                    "code": "92822-6",
                                    "display": "Genomic coord system",
                                    "system": "http://loinc.org"
                                }
                            ]
                        },
                        "valueCodeableConcept": {
                            "coding": [
                                {
                                    "code": "LA30100-4",
                                    "display": "0-based interval counting",
                                    "system": "http://loinc.org"
                                }
                            ]
                        }
                    }
                ],
                "id": "dv-b2687130589f4abb85d77e215ebaa551",
                "meta": {
                    "profile": [
                        "http://hl7.org/fhir/uv/genomics-reporting/StructureDefinition/variant"
                    ]
                },
                "resourceType": "Observation",
                "status": "final",
                "subject": {
                    "reference": "Patient/TCGA-DD-A1EH"
                },
                "valueCodeableConcept": {
                    "coding": [
                        {
                            "code": "LA9633-4",
                            "display": "present",
                            "system": "http://loinc.org"
                        }
                    ]
                }
            }
        },
        {
            "name": "variant",
            "resource": {
                "category": [
                    {
                        "coding": [
                            {
                                "code": "laboratory",
                                "system": "http://terminology.hl7.org/CodeSystem/observation-category"
                            }
                        ]
                    }
                ],
                "code": {
                    "coding": [
                        {
                            "code": "69548-6",
                            "display": "Genetic variant assessment",
                            "system": "http://loinc.org"
                        }
                    ]
                },
                "component": [
                    {
                        "code": {
                            "coding": [
                                {
                                    "code": "48002-0",
                                    "display": "Genomic Source Class",
                                    "system": "http://loinc.org"
                                }
                            ]
                        },
                        "valueCodeableConcept": {
                            "coding": [
                                {
                                    "code": "LA6684-0",
                                    "display": "somatic",
                                    "system": "http://loinc.org"
                                }
                            ]
                        }
                    },
                    {
                        "code": {
                            "coding": [
                                {
                                    "code": "48013-7",
                                    "display": "Genomic reference sequence ID",
                                    "system": "http://loinc.org"
                                }
                            ]
                        },
                        "valueCodeableConcept": {
                            "coding": [
                                {
                                    "code": "NC_000001.10",
                                    "system": "http://www.ncbi.nlm.nih.gov/nuccore"
                                }
                            ]
                        }
                    },
                    {
                        "code": {
                            "coding": [
                                {
                                    "code": "69547-8",
                                    "display": "Genomic Ref allele [ID]",
                                    "system": "http://loinc.org"
                                }
                            ]
                        },
                        "valueString": "G"
                    },
                    {
                        "code": {
                            "coding": [
                                {
                                    "code": "69551-0",
                                    "display": "Genomic Alt allele [ID]",
                                    "system": "http://loinc.org"
                                }
                            ]
                        },
                        "valueString": "GT"
                    },
                    {
                        "code": {
                            "coding": [
                                {
                                    "code": "81252-9",
                                    "display": "Discrete genetic variant",
                                    "system": "http://loinc.org"
                                }
                            ]
                        },
                        "valueCodeableConcept": {
                            "coding": [
                                {
                                    "code": "NC_000001.10:27106893::T",
                                    "display": "NC_000001.10:27106893::T",
                                    "system": "https://api.ncbi.nlm.nih.gov/variation/v0/"
                                }
                            ]
                        }
                    },
                    {
                        "code": {
                            "coding": [
                                {
                                    "code": "81254-5",
                                    "display": "Variant exact start-end",
                                    "system": "http://loinc.org"
                                }
                            ]
                        },
                        "valueRange": {
                            "low": {
                                "value": 27106892
                            }
                        }
                    },
                    {
                        "code": {
                            "coding": [
                                {
                                    "code": "81258-6",
                                    "display": "Sample VAF",
                                    "system": "http://loinc.org"
                                }
                            ]
                        },
                        "valueQuantity": {
                            "code": "1",
                            "system": "http://unitsofmeasure.org",
                            "unit": "relative frequency of a particular allele in the specimen",
                            "value": 0
                        }
                    },
                    {
                        "code": {
                            "coding": [
                                {
                                    "code": "92822-6",
                                    "display": "Genomic coord system",
                                    "system": "http://loinc.org"
                                }
                            ]
                        },
                        "valueCodeableConcept": {
                            "coding": [
                                {
                                    "code": "LA30100-4",
                                    "display": "0-based interval counting",
                                    "system": "http://loinc.org"
                                }
                            ]
                        }
                    }
                ],
                "id": "dv-cf0f01397a134be8a7d1551655b7c3c6",
                "meta": {
                    "profile": [
                        "http://hl7.org/fhir/uv/genomics-reporting/StructureDefinition/variant"
                    ]
                },
                "resourceType": "Observation",
                "status": "final",
                "subject": {
                    "reference": "Patient/TCGA-DD-A1EH"
                },
                "valueCodeableConcept": {
                    "coding": [
                        {
                            "code": "LA9633-4",
                            "display": "present",
                            "system": "http://loinc.org"
                        }
                    ]
                }
            }
        }
    ],
    "resourceType": "Parameters"
}